Folder: XRF/XRF_film/dataset (part 6)

File: M-2-8.csv
Spectrum title              ,             M-2-8
Detector type ,             SDD (2016)
Voltage (kV)  ,              5
Current (uA)  ,              600
Primary filter              ,             Open
Helium used   ,             Yes
Live acquisition time (s)   ,              90
Dead time (%) ,              10
Channel       ,             counts
0             ,             0
14            ,             0
28            ,             7
42            ,             250
56            ,             1599
70            ,             466
84            ,             300
98            ,             232
112           ,             224
126           ,             282
140           ,             470
154           ,             914
168           ,             3014
182           ,             38293
196           ,             5262
210           ,             9121
224           ,             25615
238           ,             32057
252           ,             14950
266           ,             6906
280           ,             5961
294           ,             7199
308           ,             7115
322           ,             8115
336           ,             9127
350           ,             9805
364           ,             11267
378           ,             10770
392           ,             10230
406           ,             10133
420           ,             9403
434           ,             8705
448           ,             7836
462           ,             6468
476           ,             4948
490           ,             2485
504           ,             250
518           ,             61
532           ,             68
546           ,             90
560           ,             84
574           ,             101
588           ,             82
602           ,             96
616           ,             82
630           ,             96
644           ,             88
658           ,             84
672           ,             74
686           ,             69
700           ,             49
714           ,             58
728           ,             30
742           ,             39
756           ,             28
770           ,             29
784           ,             29
798           ,             28
812           ,             18
826           ,             25
840           ,             18
854           ,             19
868           ,             10
882           ,             10
896           ,             6
910           ,             5
924           ,             2
938           ,             2
952           ,             2
966           ,             2
980           ,             0
994           ,             0
1008          ,             0
1022          ,             1
1036          ,             0
1050          ,             0
1064          ,             0
1078          ,             0
1092          ,             0
1106          ,             0
1120          ,             0
1134          ,             0
1148          ,             0
1162          ,             0
1176          ,             2
1190          ,             0
1204          ,             0
1218          ,             0
1232          ,             0
1246          ,             0
1260          ,             0
1274          ,             0
1288          ,             0
1302          ,             0
1316          ,             0
1330          ,             0
1344          ,             0
1358          ,             0
1372          ,             0
1386          ,             0
1400          ,             0
1414          ,             0
1428          ,             0
1442          ,             0
1456          ,             0
1470          ,             0
1484          ,             0
1498          ,             0
1512          ,             0
1526          ,             0
1540          ,             0
1554          ,             0
1568          ,             0
1582          ,             0
1596          ,             0
1610          ,             0
1624          ,             0
1638          ,             0
1652          ,             0
1666          ,             0
1680          ,             0
1694          ,             0
1708          ,             0
1722          ,             0
1736          ,             0
1750          ,             0
1764          ,             0
1778          ,             0
1792          ,             0
1806          ,             0
1820          ,             0
1834          ,             0
1848          ,             0
1862          ,             0
1876          ,             0
1890          ,             0
1904          ,             0
1918          ,             0
1932          ,             0
1946          ,             0
1960          ,             0
1974          ,             0
1988          ,             0
2002          ,             0
2016          ,             0
2030          ,             0
2044          ,             0
2058          ,             0
2072          ,             0
2086          ,             0
2100          ,             0
2114          ,             0
2128          ,             0
2142          ,             0
2156          ,             0
2170          ,             0
2184          ,             0
2198          ,             0
2212          ,             0
2226          ,             0
2240          ,             0
2254          ,             0
2268          ,             0
2282          ,             0
2296          ,             0
2310          ,             0
2324          ,             0
2338          ,             0
2352          ,             0
2366          ,             0
2380          ,             0
2394          ,             0
2408          ,             0
2422          ,             0
2436          ,             0
2450          ,             0
2464          ,             0
2478          ,             0
2492          ,             0
2506          ,             0
2520          ,             0
2534          ,             0
2548          ,             0
2562          ,             0
2576          ,             0
2590          ,             0
2604          ,             0
2618          ,             0
2632          ,             0
2646          ,             0
2660          ,             0
2674          ,             0
2688          ,             0
2702          ,             0
2716          ,             0
2730          ,             0
2744          ,             0
2758          ,             0
2772          ,             0
2786          ,             0
2800          ,             0
2814          ,             0
2828          ,             0
2842          ,             0
2856          ,             0
2870          ,             0
2884          ,             0
2898          ,             0
2912          ,             0
2926          ,             0
2940          ,             0
2954          ,             0
2968          ,             0
2982          ,             0
2996          ,             0
3010          ,             0
3024          ,             0
3038          ,             0
3052          ,             0
3066          ,             0
3080          ,             0
3094          ,             0
3108          ,             0
3122          ,             0
3136          ,             0
3150          ,             0
3164          ,             0
3178          ,             0
3192          ,             0
3206          ,             0
3220          ,             0
3234          ,             0
3248          ,             0
3262          ,             0
3276          ,             0
3290          ,             0
3304          ,             0
3318          ,             0
3332          ,             0
3346          ,             0
3360          ,             0
3374          ,             0
3388          ,             0
3402          ,             0
3416          ,             0
3430          ,             0
3444          ,             0
3458          ,             0
3472          ,             0
3486          ,             0
3500          ,             0
3514          ,             0
3528          ,             0
3542          ,             0
3556          ,             0
3570          ,             0
3584          ,             0
3598          ,             0
3612          ,             0
3626          ,             0
3640          ,             0
3654          ,             0
3668          ,             0
3682          ,             0
3696          ,             0
3710          ,             0
3724          ,             0
3738          ,             0
3752          ,             0
3766          ,             0
3780          ,             0
3794          ,             0
3808          ,             0
3822          ,             0
3836          ,             0
3850          ,             0
3864          ,             0
3878          ,             0
3892          ,             0
3906          ,             0
3920          ,             0
3934          ,             0
3948          ,             0
3962          ,             0
3976          ,             0
3990          ,             0
4004          ,             0
4018          ,             0
4032          ,             0
4046          ,             0
4060          ,             0
4074          ,             0
4088          ,             0
4095          ,             0

File: M-2-10.csv
Spectrum title              ,             M-2-10
Detector type ,             SDD (2016)
Voltage (kV)  ,              5
Current (uA)  ,              600
Primary filter              ,             Open
Helium used   ,             Yes
Live acquisition time (s)   ,              90
Dead time (%) ,              10
Channel       ,             counts
0             ,             0
14            ,             0
28            ,             7
42            ,             230
56            ,             1536
70            ,             478
84            ,             268
98            ,             245
112           ,             248
126           ,             315
140           ,             526
154           ,             994
168           ,             3046
182           ,             38017
196           ,             5222
210           ,             9125
224           ,             25694
238           ,             32194
252           ,             14789
266           ,             7064
280           ,             5907
294           ,             7156
308           ,             7104
322           ,             8306
336           ,             9095
350           ,             9496
364           ,             11155
378           ,             10744
392           ,             10359
406           ,             10123
420           ,             9249
434           ,             8646
448           ,             7501
462           ,             6463
476           ,             4897
490           ,             2364
504           ,             218
518           ,             55
532           ,             60
546           ,             97
560           ,             82
574           ,             84
588           ,             97
602           ,             90
616           ,             98
630           ,             102
644           ,             93
658           ,             77
672           ,             63
686           ,             56
700           ,             51
714           ,             45
728           ,             35
742           ,             45
756           ,             30
770           ,             33
784           ,             28
798           ,             24
812           ,             25
826           ,             11
840           ,             27
854           ,             15
868           ,             11
882           ,             12
896           ,             10
910           ,             6
924           ,             2
938           ,             2
952           ,             1
966           ,             0
980           ,             0
994           ,             0
1008          ,             0
1022          ,             0
1036          ,             0
1050          ,             0
1064          ,             1
1078          ,             0
1092          ,             1
1106          ,             0
1120          ,             0
1134          ,             0
1148          ,             1
1162          ,             0
1176          ,             0
1190          ,             0
1204          ,             0
1218          ,             0
1232          ,             0
1246          ,             0
1260          ,             0
1274          ,             1
1288          ,             0
1302          ,             0
1316          ,             0
1330          ,             0
1344          ,             0
1358          ,             0
1372          ,             0
1386          ,             0
1400          ,             0
1414          ,             0
1428          ,             0
1442          ,             0
1456          ,             0
1470          ,             0
1484          ,             0
1498          ,             0
1512          ,             0
1526          ,             0
1540          ,             0
1554          ,             0
1568          ,             0
1582          ,             0
1596          ,             0
1610          ,             0
1624          ,             0
1638          ,             0
1652          ,             0
1666          ,             0
1680          ,             0
1694          ,             0
1708          ,             0
1722          ,             0
1736          ,             0
1750          ,             0
1764          ,             0
1778          ,             0
1792          ,             0
1806          ,             0
1820          ,             0
1834          ,             0
1848          ,             0
1862          ,             0
1876          ,             0
1890          ,             0
1904          ,             0
1918          ,             0
1932          ,             0
1946          ,             0
1960          ,             0
1974          ,             0
1988          ,             0
2002          ,             0
2016          ,             0
2030          ,             0
2044          ,             0
2058          ,             0
2072          ,             0
2086          ,             0
2100          ,             0
2114          ,             0
2128          ,             0
2142          ,             0
2156          ,             0
2170          ,             0
2184          ,             0
2198          ,             0
2212          ,             0
2226          ,             0
2240          ,             0
2254          ,             0
2268          ,             0
2282          ,             0
2296          ,             0
2310          ,             0
2324          ,             0
2338          ,             0
2352          ,             0
2366          ,             0
2380          ,             0
2394          ,             0
2408          ,             0
2422          ,             0
2436          ,             0
2450          ,             0
2464          ,             0
2478          ,             0
2492          ,             0
2506          ,             0
2520          ,             0
2534          ,             0
2548          ,             0
2562          ,             0
2576          ,             0
2590          ,             0
2604          ,             0
2618          ,             0
2632          ,             0
2646          ,             0
2660          ,             0
2674          ,             0
2688          ,             0
2702          ,             0
2716          ,             0
2730          ,             0
2744          ,             0
2758          ,             0
2772          ,             0
2786          ,             0
2800          ,             0
2814          ,             0
2828          ,             0
2842          ,             0
2856          ,             0
2870          ,             0
2884          ,             0
2898          ,             0
2912          ,             0
2926          ,             0
2940          ,             0
2954          ,             0
2968          ,             0
2982          ,             0
2996          ,             0
3010          ,             0
3024          ,             0
3038          ,             0
3052          ,             0
3066          ,             0
3080          ,             0
3094          ,             0
3108          ,             0
3122          ,             0
3136          ,             0
3150          ,             0
3164          ,             0
3178          ,             0
3192          ,             0
3206          ,             0
3220          ,             0
3234          ,             0
3248          ,             0
3262          ,             0
3276          ,             0
3290          ,             0
3304          ,             0
3318          ,             0
3332          ,             0
3346          ,             0
3360          ,             0
3374          ,             0
3388          ,             0
3402          ,             0
3416          ,             0
3430          ,             0
3444          ,             0
3458          ,             0
3472          ,             0
3486          ,             0
3500          ,             0
3514          ,             0
3528          ,             0
3542          ,             0
3556          ,             0
3570          ,             0
3584          ,             0
3598          ,             0
3612          ,             0
3626          ,             0
3640          ,             0
3654          ,             0
3668          ,             0
3682          ,             0
3696          ,             0
3710          ,             0
3724          ,             0
3738          ,             0
3752          ,             0
3766          ,             0
3780          ,             0
3794          ,             0
3808          ,             0
3822          ,             0
3836          ,             0
3850          ,             0
3864          ,             0
3878          ,             0
3892          ,             0
3906          ,             0
3920          ,             0
3934          ,             0
3948          ,             0
3962          ,             0
3976          ,             0
3990          ,             0
4004          ,             0
4018          ,             0
4032          ,             0
4046          ,             0
4060          ,             0
4074          ,             0
4088          ,             0
4095          ,             0