Folder: XRF/XRF_film/dataset (part 4)

File: 2.5-8-9.csv
Spectrum title              ,             2.5-1-8-9
Detector type ,             SDD (2016)
Voltage (kV)  ,              5
Current (uA)  ,              600
Primary filter              ,             Open
Helium used   ,             Yes
Live acquisition time (s)   ,              90
Dead time (%) ,              10
Channel       ,             counts
0             ,             0
14            ,             0
28            ,             5
42            ,             234
56            ,             1577
70            ,             478
84            ,             326
98            ,             281
112           ,             233
126           ,             254
140           ,             522
154           ,             981
168           ,             3746
182           ,             37420
196           ,             4501
210           ,             8295
224           ,             27166
238           ,             34709
252           ,             15721
266           ,             7108
280           ,             5945
294           ,             7104
308           ,             6931
322           ,             8125
336           ,             9108
350           ,             9689
364           ,             10579
378           ,             10378
392           ,             10236
406           ,             9895
420           ,             9330
434           ,             8553
448           ,             7626
462           ,             6471
476           ,             4775
490           ,             2491
504           ,             226
518           ,             69
532           ,             67
546           ,             68
560           ,             83
574           ,             100
588           ,             87
602           ,             93
616           ,             95
630           ,             104
644           ,             84
658           ,             76
672           ,             72
686           ,             59
700           ,             59
714           ,             59
728           ,             26
742           ,             39
756           ,             23
770           ,             22
784           ,             20
798           ,             27
812           ,             29
826           ,             15
840           ,             20
854           ,             10
868           ,             18
882           ,             7
896           ,             7
910           ,             5
924           ,             3
938           ,             4
952           ,             2
966           ,             2
980           ,             2
994           ,             0
1008          ,             0
1022          ,             0
1036          ,             0
1050          ,             0
1064          ,             0
1078          ,             0
1092          ,             0
1106          ,             0
1120          ,             0
1134          ,             0
1148          ,             0
1162          ,             0
1176          ,             0
1190          ,             0
1204          ,             0
1218          ,             0
1232          ,             0
1246          ,             0
1260          ,             0
1274          ,             0
1288          ,             0
1302          ,             0
1316          ,             1
1330          ,             0
1344          ,             0
1358          ,             0
1372          ,             0
1386          ,             0
1400          ,             0
1414          ,             0
1428          ,             0
1442          ,             0
1456          ,             0
1470          ,             0
1484          ,             0
1498          ,             0
1512          ,             0
1526          ,             0
1540          ,             0
1554          ,             0
1568          ,             0
1582          ,             0
1596          ,             0
1610          ,             0
1624          ,             0
1638          ,             0
1652          ,             0
1666          ,             0
1680          ,             0
1694          ,             0
1708          ,             0
1722          ,             0
1736          ,             0
1750          ,             0
1764          ,             0
1778          ,             0
1792          ,             0
1806          ,             0
1820          ,             0
1834          ,             0
1848          ,             0
1862          ,             0
1876          ,             0
1890          ,             0
1904          ,             0
1918          ,             0
1932          ,             0
1946          ,             0
1960          ,             0
1974          ,             0
1988          ,             0
2002          ,             0
2016          ,             0
2030          ,             0
2044          ,             0
2058          ,             0
2072          ,             0
2086          ,             0
2100          ,             0
2114          ,             0
2128          ,             0
2142          ,             0
2156          ,             0
2170          ,             0
2184          ,             0
2198          ,             0
2212          ,             0
2226          ,             0
2240          ,             0
2254          ,             0
2268          ,             0
2282          ,             0
2296          ,             0
2310          ,             0
2324          ,             0
2338          ,             0
2352          ,             0
2366          ,             0
2380          ,             0
2394          ,             0
2408          ,             0
2422          ,             0
2436          ,             0
2450          ,             0
2464          ,             0
2478          ,             0
2492          ,             0
2506          ,             0
2520          ,             0
2534          ,             0
2548          ,             0
2562          ,             0
2576          ,             0
2590          ,             0
2604          ,             0
2618          ,             0
2632          ,             0
2646          ,             0
2660          ,             0
2674          ,             0
2688          ,             0
2702          ,             0
2716          ,             0
2730          ,             0
2744          ,             0
2758          ,             0
2772          ,             0
2786          ,             0
2800          ,             0
2814          ,             0
2828          ,             0
2842          ,             0
2856          ,             0
2870          ,             0
2884          ,             0
2898          ,             0
2912          ,             0
2926          ,             0
2940          ,             0
2954          ,             0
2968          ,             0
2982          ,             0
2996          ,             0
3010          ,             0
3024          ,             0
3038          ,             0
3052          ,             0
3066          ,             0
3080          ,             0
3094          ,             0
3108          ,             0
3122          ,             0
3136          ,             0
3150          ,             0
3164          ,             0
3178          ,             0
3192          ,             0
3206          ,             0
3220          ,             0
3234          ,             0
3248          ,             0
3262          ,             0
3276          ,             0
3290          ,             0
3304          ,             0
3318          ,             0
3332          ,             0
3346          ,             0
3360          ,             0
3374          ,             0
3388          ,             0
3402          ,             0
3416          ,             0
3430          ,             0
3444          ,             0
3458          ,             0
3472          ,             0
3486          ,             0
3500          ,             0
3514          ,             0
3528          ,             0
3542          ,             0
3556          ,             0
3570          ,             0
3584          ,             0
3598          ,             0
3612          ,             0
3626          ,             0
3640          ,             0
3654          ,             0
3668          ,             0
3682          ,             0
3696          ,             0
3710          ,             0
3724          ,             0
3738          ,             0
3752          ,             0
3766          ,             0
3780          ,             0
3794          ,             0
3808          ,             0
3822          ,             0
3836          ,             0
3850          ,             0
3864          ,             0
3878          ,             0
3892          ,             0
3906          ,             0
3920          ,             0
3934          ,             0
3948          ,             0
3962          ,             0
3976          ,             0
3990          ,             0
4004          ,             0
4018          ,             0
4032          ,             0
4046          ,             0
4060          ,             0
4074          ,             0
4088          ,             0
4095          ,             0

File: M-1-2.csv
Spectrum title              ,             M 1-2
Detector type ,             SDD (2016)
Voltage (kV)  ,              5
Current (uA)  ,              600
Primary filter              ,             Open
Helium used   ,             Yes
Live acquisition time (s)   ,              90
Dead time (%) ,              10
Channel       ,             counts
0             ,             0
14            ,             0
28            ,             8
42            ,             247
56            ,             1558
70            ,             458
84            ,             297
98            ,             223
112           ,             227
126           ,             256
140           ,             475
154           ,             960
168           ,             3019
182           ,             38112
196           ,             5190
210           ,             8941
224           ,             25856
238           ,             32223
252           ,             14970
266           ,             7091
280           ,             5931
294           ,             7047
308           ,             7159
322           ,             8126
336           ,             9107
350           ,             9732
364           ,             10889
378           ,             10646
392           ,             10340
406           ,             10131
420           ,             9332
434           ,             8673
448           ,             7778
462           ,             6605
476           ,             4818
490           ,             2503
504           ,             235
518           ,             77
532           ,             70
546           ,             75
560           ,             77
574           ,             78
588           ,             92
602           ,             97
616           ,             88
630           ,             77
644           ,             95
658           ,             90
672           ,             79
686           ,             60
700           ,             53
714           ,             60
728           ,             39
742           ,             33
756           ,             31
770           ,             21
784           ,             19
798           ,             32
812           ,             17
826           ,             15
840           ,             18
854           ,             14
868           ,             12
882           ,             6
896           ,             12
910           ,             8
924           ,             7
938           ,             1
952           ,             0
966           ,             4
980           ,             0
994           ,             1
1008          ,             0
1022          ,             0
1036          ,             0
1050          ,             0
1064          ,             0
1078          ,             0
1092          ,             0
1106          ,             0
1120          ,             0
1134          ,             0
1148          ,             0
1162          ,             0
1176          ,             0
1190          ,             0
1204          ,             0
1218          ,             0
1232          ,             0
1246          ,             0
1260          ,             0
1274          ,             0
1288          ,             0
1302          ,             0
1316          ,             0
1330          ,             0
1344          ,             0
1358          ,             0
1372          ,             0
1386          ,             0
1400          ,             0
1414          ,             0
1428          ,             0
1442          ,             0
1456          ,             0
1470          ,             0
1484          ,             0
1498          ,             0
1512          ,             0
1526          ,             0
1540          ,             0
1554          ,             0
1568          ,             0
1582          ,             0
1596          ,             0
1610          ,             0
1624          ,             0
1638          ,             0
1652          ,             0
1666          ,             0
1680          ,             0
1694          ,             0
1708          ,             0
1722          ,             0
1736          ,             0
1750          ,             0
1764          ,             0
1778          ,             0
1792          ,             0
1806          ,             0
1820          ,             0
1834          ,             0
1848          ,             0
1862          ,             0
1876          ,             0
1890          ,             0
1904          ,             0
1918          ,             0
1932          ,             0
1946          ,             0
1960          ,             0
1974          ,             0
1988          ,             0
2002          ,             0
2016          ,             0
2030          ,             0
2044          ,             0
2058          ,             0
2072          ,             0
2086          ,             0
2100          ,             0
2114          ,             0
2128          ,             0
2142          ,             0
2156          ,             0
2170          ,             0
2184          ,             0
2198          ,             0
2212          ,             0
2226          ,             0
2240          ,             0
2254          ,             0
2268          ,             0
2282          ,             0
2296          ,             0
2310          ,             0
2324          ,             0
2338          ,             0
2352          ,             0
2366          ,             0
2380          ,             0
2394          ,             0
2408          ,             0
2422          ,             0
2436          ,             0
2450          ,             0
2464          ,             0
2478          ,             0
2492          ,             0
2506          ,             0
2520          ,             0
2534          ,             0
2548          ,             0
2562          ,             0
2576          ,             0
2590          ,             0
2604          ,             0
2618          ,             0
2632          ,             0
2646          ,             0
2660          ,             0
2674          ,             0
2688          ,             0
2702          ,             0
2716          ,             0
2730          ,             0
2744          ,             0
2758          ,             0
2772          ,             0
2786          ,             0
2800          ,             0
2814          ,             0
2828          ,             0
2842          ,             0
2856          ,             0
2870          ,             0
2884          ,             0
2898          ,             0
2912          ,             0
2926          ,             0
2940          ,             0
2954          ,             0
2968          ,             0
2982          ,             0
2996          ,             0
3010          ,             0
3024          ,             0
3038          ,             0
3052          ,             0
3066          ,             0
3080          ,             0
3094          ,             0
3108          ,             0
3122          ,             0
3136          ,             0
3150          ,             0
3164          ,             0
3178          ,             0
3192          ,             0
3206          ,             0
3220          ,             0
3234          ,             0
3248          ,             0
3262          ,             0
3276          ,             0
3290          ,             0
3304          ,             0
3318          ,             0
3332          ,             0
3346          ,             0
3360          ,             0
3374          ,             0
3388          ,             0
3402          ,             0
3416          ,             0
3430          ,             0
3444          ,             0
3458          ,             0
3472          ,             0
3486          ,             0
3500          ,             0
3514          ,             0
3528          ,             0
3542          ,             0
3556          ,             0
3570          ,             0
3584          ,             0
3598          ,             0
3612          ,             0
3626          ,             0
3640          ,             0
3654          ,             0
3668          ,             0
3682          ,             0
3696          ,             0
3710          ,             0
3724          ,             0
3738          ,             0
3752          ,             0
3766          ,             0
3780          ,             0
3794          ,             0
3808          ,             0
3822          ,             0
3836          ,             0
3850          ,             0
3864          ,             0
3878          ,             0
3892          ,             0
3906          ,             0
3920          ,             0
3934          ,             0
3948          ,             0
3962          ,             0
3976          ,             0
3990          ,             0
4004          ,             0
4018          ,             0
4032          ,             0
4046          ,             0
4060          ,             0
4074          ,             0
4088          ,             0
4095          ,             0