Folder: XRF/XRF_film/dataset (part 7)

File: M-3-3.csv
Spectrum title              ,             M-3-3
Detector type ,             SDD (2016)
Voltage (kV)  ,              5
Current (uA)  ,              600
Primary filter              ,             Open
Helium used   ,             Yes
Live acquisition time (s)   ,              90
Dead time (%) ,              10
Channel       ,             counts
0             ,             0
14            ,             0
28            ,             10
42            ,             227
56            ,             1584
70            ,             466
84            ,             282
98            ,             253
112           ,             248
126           ,             283
140           ,             509
154           ,             931
168           ,             3030
182           ,             37750
196           ,             5238
210           ,             8953
224           ,             25679
238           ,             31881
252           ,             14856
266           ,             7132
280           ,             6152
294           ,             6921
308           ,             7069
322           ,             8200
336           ,             8897
350           ,             9809
364           ,             10923
378           ,             10770
392           ,             10457
406           ,             10106
420           ,             9304
434           ,             8499
448           ,             7581
462           ,             6447
476           ,             4915
490           ,             2375
504           ,             240
518           ,             60
532           ,             72
546           ,             101
560           ,             83
574           ,             82
588           ,             77
602           ,             77
616           ,             89
630           ,             88
644           ,             84
658           ,             70
672           ,             77
686           ,             73
700           ,             49
714           ,             56
728           ,             43
742           ,             31
756           ,             25
770           ,             28
784           ,             26
798           ,             32
812           ,             28
826           ,             19
840           ,             15
854           ,             17
868           ,             13
882           ,             12
896           ,             8
910           ,             8
924           ,             2
938           ,             2
952           ,             1
966           ,             0
980           ,             0
994           ,             1
1008          ,             0
1022          ,             0
1036          ,             0
1050          ,             0
1064          ,             0
1078          ,             0
1092          ,             0
1106          ,             0
1120          ,             0
1134          ,             0
1148          ,             0
1162          ,             0
1176          ,             0
1190          ,             0
1204          ,             0
1218          ,             0
1232          ,             0
1246          ,             0
1260          ,             0
1274          ,             1
1288          ,             0
1302          ,             0
1316          ,             1
1330          ,             0
1344          ,             0
1358          ,             0
1372          ,             0
1386          ,             0
1400          ,             0
1414          ,             0
1428          ,             0
1442          ,             0
1456          ,             0
1470          ,             0
1484          ,             0
1498          ,             0
1512          ,             0
1526          ,             0
1540          ,             0
1554          ,             0
1568          ,             0
1582          ,             0
1596          ,             0
1610          ,             0
1624          ,             0
1638          ,             0
1652          ,             0
1666          ,             0
1680          ,             0
1694          ,             0
1708          ,             0
1722          ,             0
1736          ,             0
1750          ,             0
1764          ,             0
1778          ,             0
1792          ,             0
1806          ,             0
1820          ,             0
1834          ,             0
1848          ,             0
1862          ,             0
1876          ,             0
1890          ,             0
1904          ,             0
1918          ,             0
1932          ,             0
1946          ,             0
1960          ,             0
1974          ,             0
1988          ,             0
2002          ,             0
2016          ,             0
2030          ,             0
2044          ,             0
2058          ,             0
2072          ,             0
2086          ,             0
2100          ,             0
2114          ,             0
2128          ,             0
2142          ,             0
2156          ,             0
2170          ,             0
2184          ,             0
2198          ,             0
2212          ,             0
2226          ,             0
2240          ,             0
2254          ,             0
2268          ,             0
2282          ,             0
2296          ,             0
2310          ,             0
2324          ,             0
2338          ,             0
2352          ,             0
2366          ,             0
2380          ,             0
2394          ,             0
2408          ,             0
2422          ,             0
2436          ,             0
2450          ,             0
2464          ,             0
2478          ,             0
2492          ,             0
2506          ,             0
2520          ,             0
2534          ,             0
2548          ,             0
2562          ,             0
2576          ,             0
2590          ,             0
2604          ,             0
2618          ,             0
2632          ,             0
2646          ,             0
2660          ,             0
2674          ,             0
2688          ,             0
2702          ,             0
2716          ,             0
2730          ,             0
2744          ,             0
2758          ,             0
2772          ,             0
2786          ,             0
2800          ,             0
2814          ,             0
2828          ,             0
2842          ,             0
2856          ,             1
2870          ,             0
2884          ,             0
2898          ,             0
2912          ,             0
2926          ,             0
2940          ,             0
2954          ,             0
2968          ,             0
2982          ,             0
2996          ,             0
3010          ,             0
3024          ,             0
3038          ,             0
3052          ,             0
3066          ,             0
3080          ,             0
3094          ,             0
3108          ,             0
3122          ,             0
3136          ,             0
3150          ,             0
3164          ,             0
3178          ,             0
3192          ,             0
3206          ,             0
3220          ,             0
3234          ,             0
3248          ,             0
3262          ,             0
3276          ,             0
3290          ,             0
3304          ,             0
3318          ,             0
3332          ,             0
3346          ,             0
3360          ,             0
3374          ,             0
3388          ,             0
3402          ,             0
3416          ,             0
3430          ,             0
3444          ,             0
3458          ,             0
3472          ,             0
3486          ,             0
3500          ,             0
3514          ,             0
3528          ,             0
3542          ,             0
3556          ,             0
3570          ,             0
3584          ,             0
3598          ,             0
3612          ,             0
3626          ,             0
3640          ,             0
3654          ,             0
3668          ,             0
3682          ,             0
3696          ,             0
3710          ,             0
3724          ,             0
3738          ,             0
3752          ,             0
3766          ,             0
3780          ,             0
3794          ,             0
3808          ,             0
3822          ,             0
3836          ,             0
3850          ,             0
3864          ,             0
3878          ,             0
3892          ,             0
3906          ,             0
3920          ,             0
3934          ,             0
3948          ,             0
3962          ,             0
3976          ,             0
3990          ,             0
4004          ,             0
4018          ,             0
4032          ,             0
4046          ,             0
4060          ,             0
4074          ,             0
4088          ,             0
4095          ,             0

File: M-5-3.csv
Spectrum title              ,             M-5-3
Detector type ,             SDD (2016)
Voltage (kV)  ,              5
Current (uA)  ,              600
Primary filter              ,             Open
Helium used   ,             Yes
Live acquisition time (s)   ,              90
Dead time (%) ,              10
Channel       ,             counts
0             ,             0
14            ,             0
28            ,             7
42            ,             229
56            ,             1564
70            ,             485
84            ,             296
98            ,             263
112           ,             273
126           ,             264
140           ,             499
154           ,             960
168           ,             3046
182           ,             38125
196           ,             5247
210           ,             9058
224           ,             25925
238           ,             32265
252           ,             14801
266           ,             6884
280           ,             5951
294           ,             6991
308           ,             6958
322           ,             8104
336           ,             9026
350           ,             9645
364           ,             11176
378           ,             10651
392           ,             10264
406           ,             10307
420           ,             9286
434           ,             8738
448           ,             7668
462           ,             6522
476           ,             4918
490           ,             2472
504           ,             254
518           ,             52
532           ,             67
546           ,             80
560           ,             84
574           ,             85
588           ,             92
602           ,             96
616           ,             95
630           ,             88
644           ,             82
658           ,             77
672           ,             75
686           ,             61
700           ,             53
714           ,             44
728           ,             51
742           ,             33
756           ,             20
770           ,             31
784           ,             26
798           ,             24
812           ,             16
826           ,             27
840           ,             14
854           ,             9
868           ,             8
882           ,             7
896           ,             8
910           ,             2
924           ,             2
938           ,             6
952           ,             2
966           ,             1
980           ,             0
994           ,             0
1008          ,             1
1022          ,             0
1036          ,             1
1050          ,             0
1064          ,             0
1078          ,             0
1092          ,             0
1106          ,             0
1120          ,             0
1134          ,             1
1148          ,             0
1162          ,             0
1176          ,             0
1190          ,             0
1204          ,             0
1218          ,             0
1232          ,             0
1246          ,             0
1260          ,             0
1274          ,             0
1288          ,             0
1302          ,             0
1316          ,             0
1330          ,             0
1344          ,             0
1358          ,             0
1372          ,             0
1386          ,             0
1400          ,             0
1414          ,             0
1428          ,             0
1442          ,             0
1456          ,             0
1470          ,             0
1484          ,             0
1498          ,             0
1512          ,             0
1526          ,             0
1540          ,             0
1554          ,             0
1568          ,             0
1582          ,             0
1596          ,             0
1610          ,             0
1624          ,             0
1638          ,             0
1652          ,             0
1666          ,             0
1680          ,             0
1694          ,             0
1708          ,             0
1722          ,             0
1736          ,             0
1750          ,             0
1764          ,             0
1778          ,             0
1792          ,             0
1806          ,             0
1820          ,             0
1834          ,             0
1848          ,             0
1862          ,             0
1876          ,             0
1890          ,             0
1904          ,             0
1918          ,             0
1932          ,             0
1946          ,             0
1960          ,             0
1974          ,             0
1988          ,             0
2002          ,             0
2016          ,             0
2030          ,             0
2044          ,             0
2058          ,             0
2072          ,             0
2086          ,             0
2100          ,             0
2114          ,             0
2128          ,             0
2142          ,             0
2156          ,             0
2170          ,             0
2184          ,             0
2198          ,             0
2212          ,             0
2226          ,             0
2240          ,             0
2254          ,             0
2268          ,             0
2282          ,             0
2296          ,             0
2310          ,             0
2324          ,             0
2338          ,             0
2352          ,             0
2366          ,             0
2380          ,             0
2394          ,             0
2408          ,             0
2422          ,             0
2436          ,             0
2450          ,             0
2464          ,             0
2478          ,             0
2492          ,             0
2506          ,             0
2520          ,             0
2534          ,             0
2548          ,             0
2562          ,             0
2576          ,             0
2590          ,             0
2604          ,             0
2618          ,             0
2632          ,             0
2646          ,             0
2660          ,             0
2674          ,             0
2688          ,             0
2702          ,             0
2716          ,             0
2730          ,             0
2744          ,             0
2758          ,             0
2772          ,             0
2786          ,             0
2800          ,             0
2814          ,             0
2828          ,             0
2842          ,             0
2856          ,             0
2870          ,             0
2884          ,             0
2898          ,             0
2912          ,             0
2926          ,             0
2940          ,             0
2954          ,             0
2968          ,             0
2982          ,             0
2996          ,             0
3010          ,             0
3024          ,             0
3038          ,             0
3052          ,             0
3066          ,             0
3080          ,             0
3094          ,             0
3108          ,             0
3122          ,             0
3136          ,             0
3150          ,             0
3164          ,             0
3178          ,             0
3192          ,             0
3206          ,             0
3220          ,             0
3234          ,             0
3248          ,             0
3262          ,             0
3276          ,             0
3290          ,             0
3304          ,             0
3318          ,             0
3332          ,             0
3346          ,             0
3360          ,             0
3374          ,             0
3388          ,             0
3402          ,             0
3416          ,             0
3430          ,             0
3444          ,             0
3458          ,             0
3472          ,             0
3486          ,             0
3500          ,             0
3514          ,             0
3528          ,             0
3542          ,             0
3556          ,             0
3570          ,             0
3584          ,             0
3598          ,             0
3612          ,             0
3626          ,             0
3640          ,             0
3654          ,             0
3668          ,             0
3682          ,             0
3696          ,             0
3710          ,             0
3724          ,             0
3738          ,             0
3752          ,             0
3766          ,             0
3780          ,             0
3794          ,             0
3808          ,             0
3822          ,             0
3836          ,             0
3850          ,             0
3864          ,             0
3878          ,             0
3892          ,             0
3906          ,             0
3920          ,             0
3934          ,             0
3948          ,             0
3962          ,             0
3976          ,             0
3990          ,             0
4004          ,             0
4018          ,             0
4032          ,             0
4046          ,             0
4060          ,             0
4074          ,             0
4088          ,             0
4095          ,             0