Folder: XRF/XRF_film/dataset (part 5)

File: M-1-5.csv
Spectrum title              ,             M-1-5
Detector type ,             SDD (2016)
Voltage (kV)  ,              5
Current (uA)  ,              600
Primary filter              ,             Open
Helium used   ,             Yes
Live acquisition time (s)   ,              90
Dead time (%) ,              10
Channel       ,             counts
0             ,             0
14            ,             0
28            ,             14
42            ,             228
56            ,             1525
70            ,             443
84            ,             290
98            ,             250
112           ,             260
126           ,             270
140           ,             495
154           ,             985
168           ,             3223
182           ,             38085
196           ,             5205
210           ,             9023
224           ,             25580
238           ,             32178
252           ,             14804
266           ,             7037
280           ,             6025
294           ,             7124
308           ,             6991
322           ,             8031
336           ,             9105
350           ,             9567
364           ,             11223
378           ,             10703
392           ,             10300
406           ,             9995
420           ,             9331
434           ,             8683
448           ,             7476
462           ,             6385
476           ,             4878
490           ,             2426
504           ,             208
518           ,             61
532           ,             84
546           ,             79
560           ,             66
574           ,             94
588           ,             81
602           ,             87
616           ,             92
630           ,             104
644           ,             70
658           ,             78
672           ,             87
686           ,             68
700           ,             40
714           ,             39
728           ,             43
742           ,             22
756           ,             35
770           ,             23
784           ,             21
798           ,             32
812           ,             22
826           ,             20
840           ,             11
854           ,             20
868           ,             5
882           ,             7
896           ,             8
910           ,             2
924           ,             8
938           ,             1
952           ,             2
966           ,             1
980           ,             0
994           ,             0
1008          ,             1
1022          ,             0
1036          ,             0
1050          ,             0
1064          ,             0
1078          ,             0
1092          ,             0
1106          ,             1
1120          ,             0
1134          ,             0
1148          ,             0
1162          ,             0
1176          ,             0
1190          ,             0
1204          ,             0
1218          ,             0
1232          ,             0
1246          ,             0
1260          ,             0
1274          ,             0
1288          ,             0
1302          ,             1
1316          ,             0
1330          ,             0
1344          ,             0
1358          ,             0
1372          ,             0
1386          ,             0
1400          ,             0
1414          ,             0
1428          ,             0
1442          ,             0
1456          ,             0
1470          ,             0
1484          ,             0
1498          ,             0
1512          ,             0
1526          ,             0
1540          ,             0
1554          ,             0
1568          ,             0
1582          ,             0
1596          ,             0
1610          ,             0
1624          ,             0
1638          ,             0
1652          ,             0
1666          ,             0
1680          ,             0
1694          ,             0
1708          ,             0
1722          ,             0
1736          ,             0
1750          ,             0
1764          ,             0
1778          ,             0
1792          ,             0
1806          ,             0
1820          ,             0
1834          ,             0
1848          ,             0
1862          ,             0
1876          ,             0
1890          ,             0
1904          ,             0
1918          ,             0
1932          ,             0
1946          ,             0
1960          ,             0
1974          ,             0
1988          ,             0
2002          ,             0
2016          ,             0
2030          ,             0
2044          ,             0
2058          ,             0
2072          ,             0
2086          ,             0
2100          ,             0
2114          ,             0
2128          ,             0
2142          ,             0
2156          ,             0
2170          ,             0
2184          ,             0
2198          ,             0
2212          ,             0
2226          ,             0
2240          ,             0
2254          ,             0
2268          ,             0
2282          ,             0
2296          ,             0
2310          ,             0
2324          ,             0
2338          ,             0
2352          ,             0
2366          ,             0
2380          ,             0
2394          ,             0
2408          ,             0
2422          ,             0
2436          ,             0
2450          ,             0
2464          ,             0
2478          ,             0
2492          ,             0
2506          ,             0
2520          ,             0
2534          ,             0
2548          ,             0
2562          ,             0
2576          ,             0
2590          ,             0
2604          ,             0
2618          ,             0
2632          ,             0
2646          ,             0
2660          ,             0
2674          ,             0
2688          ,             0
2702          ,             0
2716          ,             0
2730          ,             0
2744          ,             0
2758          ,             0
2772          ,             0
2786          ,             0
2800          ,             0
2814          ,             0
2828          ,             0
2842          ,             0
2856          ,             0
2870          ,             0
2884          ,             0
2898          ,             0
2912          ,             0
2926          ,             0
2940          ,             0
2954          ,             0
2968          ,             0
2982          ,             0
2996          ,             0
3010          ,             0
3024          ,             0
3038          ,             0
3052          ,             0
3066          ,             0
3080          ,             0
3094          ,             0
3108          ,             0
3122          ,             0
3136          ,             0
3150          ,             0
3164          ,             0
3178          ,             0
3192          ,             0
3206          ,             0
3220          ,             0
3234          ,             0
3248          ,             0
3262          ,             0
3276          ,             0
3290          ,             0
3304          ,             0
3318          ,             0
3332          ,             0
3346          ,             0
3360          ,             0
3374          ,             0
3388          ,             0
3402          ,             0
3416          ,             0
3430          ,             0
3444          ,             0
3458          ,             0
3472          ,             0
3486          ,             0
3500          ,             0
3514          ,             0
3528          ,             0
3542          ,             0
3556          ,             0
3570          ,             0
3584          ,             0
3598          ,             0
3612          ,             0
3626          ,             0
3640          ,             0
3654          ,             0
3668          ,             0
3682          ,             0
3696          ,             0
3710          ,             0
3724          ,             0
3738          ,             0
3752          ,             0
3766          ,             0
3780          ,             0
3794          ,             0
3808          ,             0
3822          ,             0
3836          ,             0
3850          ,             0
3864          ,             0
3878          ,             0
3892          ,             0
3906          ,             0
3920          ,             0
3934          ,             0
3948          ,             0
3962          ,             0
3976          ,             0
3990          ,             0
4004          ,             0
4018          ,             0
4032          ,             0
4046          ,             0
4060          ,             0
4074          ,             0
4088          ,             0
4095          ,             0

File: M-1-9.csv
Spectrum title              ,             M-1-9
Detector type ,             SDD (2016)
Voltage (kV)  ,              5
Current (uA)  ,              600
Primary filter              ,             Open
Helium used   ,             Yes
Live acquisition time (s)   ,              90
Dead time (%) ,              10
Channel       ,             counts
0             ,             0
14            ,             0
28            ,             7
42            ,             250
56            ,             1554
70            ,             453
84            ,             258
98            ,             261
112           ,             262
126           ,             269
140           ,             490
154           ,             963
168           ,             2966
182           ,             38039
196           ,             5189
210           ,             8922
224           ,             25781
238           ,             32313
252           ,             14785
266           ,             6916
280           ,             5897
294           ,             7118
308           ,             7051
322           ,             8129
336           ,             9043
350           ,             9465
364           ,             11148
378           ,             10752
392           ,             10196
406           ,             10147
420           ,             9341
434           ,             8525
448           ,             7759
462           ,             6528
476           ,             4833
490           ,             2489
504           ,             247
518           ,             85
532           ,             78
546           ,             72
560           ,             69
574           ,             91
588           ,             91
602           ,             102
616           ,             96
630           ,             64
644           ,             92
658           ,             74
672           ,             67
686           ,             54
700           ,             45
714           ,             67
728           ,             40
742           ,             34
756           ,             32
770           ,             18
784           ,             32
798           ,             30
812           ,             18
826           ,             20
840           ,             22
854           ,             13
868           ,             13
882           ,             10
896           ,             7
910           ,             4
924           ,             5
938           ,             2
952           ,             0
966           ,             2
980           ,             2
994           ,             0
1008          ,             1
1022          ,             0
1036          ,             0
1050          ,             0
1064          ,             0
1078          ,             1
1092          ,             0
1106          ,             0
1120          ,             0
1134          ,             0
1148          ,             0
1162          ,             0
1176          ,             0
1190          ,             0
1204          ,             0
1218          ,             0
1232          ,             0
1246          ,             0
1260          ,             0
1274          ,             0
1288          ,             0
1302          ,             0
1316          ,             0
1330          ,             0
1344          ,             0
1358          ,             0
1372          ,             0
1386          ,             0
1400          ,             0
1414          ,             0
1428          ,             0
1442          ,             0
1456          ,             0
1470          ,             0
1484          ,             0
1498          ,             0
1512          ,             0
1526          ,             0
1540          ,             0
1554          ,             0
1568          ,             0
1582          ,             0
1596          ,             0
1610          ,             0
1624          ,             0
1638          ,             0
1652          ,             0
1666          ,             0
1680          ,             0
1694          ,             0
1708          ,             0
1722          ,             0
1736          ,             0
1750          ,             0
1764          ,             0
1778          ,             0
1792          ,             0
1806          ,             0
1820          ,             0
1834          ,             0
1848          ,             0
1862          ,             0
1876          ,             0
1890          ,             0
1904          ,             0
1918          ,             0
1932          ,             0
1946          ,             0
1960          ,             0
1974          ,             0
1988          ,             0
2002          ,             0
2016          ,             0
2030          ,             0
2044          ,             0
2058          ,             0
2072          ,             0
2086          ,             0
2100          ,             0
2114          ,             0
2128          ,             0
2142          ,             0
2156          ,             0
2170          ,             0
2184          ,             0
2198          ,             0
2212          ,             0
2226          ,             0
2240          ,             0
2254          ,             0
2268          ,             0
2282          ,             0
2296          ,             0
2310          ,             0
2324          ,             0
2338          ,             0
2352          ,             0
2366          ,             0
2380          ,             0
2394          ,             0
2408          ,             0
2422          ,             0
2436          ,             0
2450          ,             0
2464          ,             0
2478          ,             0
2492          ,             0
2506          ,             0
2520          ,             0
2534          ,             0
2548          ,             0
2562          ,             0
2576          ,             0
2590          ,             0
2604          ,             0
2618          ,             0
2632          ,             0
2646          ,             0
2660          ,             0
2674          ,             0
2688          ,             0
2702          ,             0
2716          ,             0
2730          ,             0
2744          ,             0
2758          ,             0
2772          ,             0
2786          ,             0
2800          ,             0
2814          ,             0
2828          ,             0
2842          ,             0
2856          ,             0
2870          ,             0
2884          ,             0
2898          ,             0
2912          ,             0
2926          ,             0
2940          ,             0
2954          ,             0
2968          ,             0
2982          ,             0
2996          ,             0
3010          ,             0
3024          ,             0
3038          ,             0
3052          ,             0
3066          ,             0
3080          ,             0
3094          ,             0
3108          ,             0
3122          ,             0
3136          ,             0
3150          ,             0
3164          ,             0
3178          ,             0
3192          ,             0
3206          ,             0
3220          ,             0
3234          ,             0
3248          ,             0
3262          ,             0
3276          ,             0
3290          ,             0
3304          ,             0
3318          ,             0
3332          ,             0
3346          ,             0
3360          ,             0
3374          ,             0
3388          ,             0
3402          ,             0
3416          ,             0
3430          ,             0
3444          ,             0
3458          ,             0
3472          ,             0
3486          ,             0
3500          ,             0
3514          ,             0
3528          ,             0
3542          ,             0
3556          ,             0
3570          ,             0
3584          ,             0
3598          ,             0
3612          ,             0
3626          ,             0
3640          ,             0
3654          ,             0
3668          ,             0
3682          ,             0
3696          ,             0
3710          ,             0
3724          ,             0
3738          ,             0
3752          ,             0
3766          ,             0
3780          ,             0
3794          ,             0
3808          ,             0
3822          ,             0
3836          ,             0
3850          ,             0
3864          ,             0
3878          ,             0
3892          ,             0
3906          ,             0
3920          ,             0
3934          ,             0
3948          ,             0
3962          ,             0
3976          ,             0
3990          ,             0
4004          ,             0
4018          ,             0
4032          ,             0
4046          ,             0
4060          ,             0
4074          ,             0
4088          ,             0
4095          ,             0