Folder: XRF/XRF_film/dataset

Note: XRF_film/README.md
# XRF_film
Research of spectral clean films for XRF analysis
- stability from batch to batch and from one film to another.
- which film provide more counts at Sulphur ROI?
_TEST

File: 2.5-1-2.csv
Spectrum title              ,             2.5-1-1-2
Detector type ,             SDD (2016)
Voltage (kV)  ,              5
Current (uA)  ,              600
Primary filter              ,             Open
Helium used   ,             Yes
Live acquisition time (s)   ,              90
Dead time (%) ,              10
Channel       ,             counts
0             ,             0
14            ,             0
28            ,             9
42            ,             245
56            ,             1678
70            ,             505
84            ,             304
98            ,             253
112           ,             264
126           ,             320
140           ,             500
154           ,             950
168           ,             3760
182           ,             37094
196           ,             4642
210           ,             8015
224           ,             26810
238           ,             34960
252           ,             15853
266           ,             7054
280           ,             5812
294           ,             7176
308           ,             6839
322           ,             8029
336           ,             9094
350           ,             9566
364           ,             10632
378           ,             10369
392           ,             10340
406           ,             9999
420           ,             9261
434           ,             8465
448           ,             7599
462           ,             6503
476           ,             5035
490           ,             2444
504           ,             240
518           ,             56
532           ,             66
546           ,             81
560           ,             57
574           ,             83
588           ,             75
602           ,             83
616           ,             92
630           ,             78
644           ,             85
658           ,             76
672           ,             68
686           ,             59
700           ,             60
714           ,             48
728           ,             38
742           ,             26
756           ,             35
770           ,             29
784           ,             40
798           ,             22
812           ,             21
826           ,             23
840           ,             19
854           ,             17
868           ,             8
882           ,             9
896           ,             5
910           ,             2
924           ,             8
938           ,             3
952           ,             1
966           ,             1
980           ,             0
994           ,             0
1008          ,             0
1022          ,             0
1036          ,             0
1050          ,             0
1064          ,             0
1078          ,             0
1092          ,             0
1106          ,             0
1120          ,             0
1134          ,             0
1148          ,             0
1162          ,             0
1176          ,             0
1190          ,             0
1204          ,             0
1218          ,             0
1232          ,             0
1246          ,             0
1260          ,             0
1274          ,             0
1288          ,             0
1302          ,             0
1316          ,             0
1330          ,             0
1344          ,             0
1358          ,             0
1372          ,             0
1386          ,             0
1400          ,             0
1414          ,             0
1428          ,             0
1442          ,             0
1456          ,             0
1470          ,             0
1484          ,             0
1498          ,             0
1512          ,             0
1526          ,             0
1540          ,             0
1554          ,             0
1568          ,             0
1582          ,             0
1596          ,             0
1610          ,             0
1624          ,             0
1638          ,             0
1652          ,             0
1666          ,             0
1680          ,             0
1694          ,             0
1708          ,             0
1722          ,             0
1736          ,             0
1750          ,             0
1764          ,             0
1778          ,             0
1792          ,             0
1806          ,             0
1820          ,             0
1834          ,             0
1848          ,             0
1862          ,             0
1876          ,             0
1890          ,             0
1904          ,             0
1918          ,             0
1932          ,             0
1946          ,             0
1960          ,             0
1974          ,             0
1988          ,             0
2002          ,             0
2016          ,             0
2030          ,             0
2044          ,             0
2058          ,             0
2072          ,             0
2086          ,             0
2100          ,             0
2114          ,             0
2128          ,             0
2142          ,             0
2156          ,             0
2170          ,             0
2184          ,             0
2198          ,             0
2212          ,             0
2226          ,             0
2240          ,             0
2254          ,             0
2268          ,             0
2282          ,             0
2296          ,             0
2310          ,             0
2324          ,             0
2338          ,             0
2352          ,             0
2366          ,             0
2380          ,             0
2394          ,             0
2408          ,             0
2422          ,             0
2436          ,             0
2450          ,             0
2464          ,             0
2478          ,             0
2492          ,             0
2506          ,             0
2520          ,             0
2534          ,             0
2548          ,             0
2562          ,             0
2576          ,             0
2590          ,             0
2604          ,             0
2618          ,             0
2632          ,             0
2646          ,             0
2660          ,             0
2674          ,             0
2688          ,             0
2702          ,             0
2716          ,             0
2730          ,             0
2744          ,             0
2758          ,             0
2772          ,             0
2786          ,             0
2800          ,             0
2814          ,             0
2828          ,             0
2842          ,             0
2856          ,             0
2870          ,             0
2884          ,             0
2898          ,             0
2912          ,             0
2926          ,             0
2940          ,             0
2954          ,             0
2968          ,             0
2982          ,             0
2996          ,             0
3010          ,             0
3024          ,             0
3038          ,             0
3052          ,             0
3066          ,             0
3080          ,             0
3094          ,             0
3108          ,             0
3122          ,             0
3136          ,             0
3150          ,             0
3164          ,             0
3178          ,             0
3192          ,             0
3206          ,             0
3220          ,             0
3234          ,             0
3248          ,             0
3262          ,             0
3276          ,             0
3290          ,             0
3304          ,             0
3318          ,             0
3332          ,             0
3346          ,             0
3360          ,             0
3374          ,             0
3388          ,             0
3402          ,             0
3416          ,             0
3430          ,             0
3444          ,             0
3458          ,             0
3472          ,             0
3486          ,             0
3500          ,             0
3514          ,             0
3528          ,             0
3542          ,             0
3556          ,             0
3570          ,             0
3584          ,             0
3598          ,             0
3612          ,             0
3626          ,             0
3640          ,             0
3654          ,             0
3668          ,             0
3682          ,             0
3696          ,             0
3710          ,             0
3724          ,             0
3738          ,             0
3752          ,             0
3766          ,             0
3780          ,             0
3794          ,             0
3808          ,             0
3822          ,             0
3836          ,             0
3850          ,             0
3864          ,             0
3878          ,             0
3892          ,             0
3906          ,             0
3920          ,             0
3934          ,             0
3948          ,             0
3962          ,             0
3976          ,             0
3990          ,             0
4004          ,             0
4018          ,             0
4032          ,             0
4046          ,             0
4060          ,             0
4074          ,             0
4088          ,             0
4095          ,             0

File: 2.5-1-3.csv
Spectrum title              ,             2.5-1-3
Detector type ,             SDD (2016)
Voltage (kV)  ,              5
Current (uA)  ,              600
Primary filter              ,             Open
Helium used   ,             Yes
Live acquisition time (s)   ,              90
Dead time (%) ,              10
Channel       ,             counts
0             ,             0
14            ,             0
28            ,             10
42            ,             232
56            ,             1627
70            ,             503
84            ,             285
98            ,             245
112           ,             271
126           ,             312
140           ,             525
154           ,             948
168           ,             3703
182           ,             36871
196           ,             4782
210           ,             8161
224           ,             26954
238           ,             34855
252           ,             15965
266           ,             7000
280           ,             5873
294           ,             7043
308           ,             7097
322           ,             7939
336           ,             9220
350           ,             9645
364           ,             10442
378           ,             10427
392           ,             10296
406           ,             9943
420           ,             9418
434           ,             8543
448           ,             7594
462           ,             6503
476           ,             4913
490           ,             2391
504           ,             232
518           ,             63
532           ,             60
546           ,             73
560           ,             60
574           ,             86
588           ,             94
602           ,             108
616           ,             86
630           ,             76
644           ,             96
658           ,             68
672           ,             76
686           ,             64
700           ,             58
714           ,             50
728           ,             44
742           ,             29
756           ,             25
770           ,             23
784           ,             26
798           ,             26
812           ,             18
826           ,             23
840           ,             22
854           ,             14
868           ,             4
882           ,             9
896           ,             8
910           ,             6
924           ,             3
938           ,             3
952           ,             1
966           ,             2
980           ,             0
994           ,             0
1008          ,             0
1022          ,             0
1036          ,             0
1050          ,             1
1064          ,             0
1078          ,             0
1092          ,             0
1106          ,             0
1120          ,             0
1134          ,             0
1148          ,             0
1162          ,             0
1176          ,             0
1190          ,             1
1204          ,             0
1218          ,             0
1232          ,             0
1246          ,             0
1260          ,             0
1274          ,             0
1288          ,             0
1302          ,             0
1316          ,             0
1330          ,             0
1344          ,             0
1358          ,             0
1372          ,             0
1386          ,             0
1400          ,             0
1414          ,             0
1428          ,             0
1442          ,             0
1456          ,             0
1470          ,             0
1484          ,             0
1498          ,             0
1512          ,             0
1526          ,             0
1540          ,             0
1554          ,             0
1568          ,             0
1582          ,             0
1596          ,             0
1610          ,             0
1624          ,             0
1638          ,             0
1652          ,             0
1666          ,             0
1680          ,             0
1694          ,             0
1708          ,             0
1722          ,             0
1736          ,             0
1750          ,             0
1764          ,             0
1778          ,             0
1792          ,             0
1806          ,             0
1820          ,             0
1834          ,             0
1848          ,             0
1862          ,             0
1876          ,             0
1890          ,             0
1904          ,             0
1918          ,             0
1932          ,             0
1946          ,             0
1960          ,             0
1974          ,             0
1988          ,             0
2002          ,             0
2016          ,             0
2030          ,             0
2044          ,             0
2058          ,             0
2072          ,             0
2086          ,             0
2100          ,             0
2114          ,             0
2128          ,             0
2142          ,             0
2156          ,             0
2170          ,             0
2184          ,             0
2198          ,             0
2212          ,             0
2226          ,             0
2240          ,             0
2254          ,             0
2268          ,             0
2282          ,             0
2296          ,             0
2310          ,             0
2324          ,             0
2338          ,             0
2352          ,             0
2366          ,             0
2380          ,             0
2394          ,             0
2408          ,             0
2422          ,             0
2436          ,             0
2450          ,             0
2464          ,             0
2478          ,             0
2492          ,             0
2506          ,             0
2520          ,             0
2534          ,             0
2548          ,             0
2562          ,             0
2576          ,             0
2590          ,             0
2604          ,             0
2618          ,             0
2632          ,             0
2646          ,             0
2660          ,             0
2674          ,             0
2688          ,             0
2702          ,             0
2716          ,             0
2730          ,             0
2744          ,             0
2758          ,             0
2772          ,             0
2786          ,             0
2800          ,             0
2814          ,             0
2828          ,             0
2842          ,             0
2856          ,             0
2870          ,             0
2884          ,             0
2898          ,             0
2912          ,             0
2926          ,             0
2940          ,             0
2954          ,             0
2968          ,             0
2982          ,             0
2996          ,             0
3010          ,             0
3024          ,             0
3038          ,             0
3052          ,             0
3066          ,             0
3080          ,             0
3094          ,             0
3108          ,             0
3122          ,             0
3136          ,             0
3150          ,             0
3164          ,             0
3178          ,             0
3192          ,             0
3206          ,             0
3220          ,             0
3234          ,             0
3248          ,             0
3262          ,             0
3276          ,             0
3290          ,             0
3304          ,             0
3318          ,             0
3332          ,             0
3346          ,             0
3360          ,             0
3374          ,             0
3388          ,             0
3402          ,             0
3416          ,             0
3430          ,             0
3444          ,             0
3458          ,             0
3472          ,             0
3486          ,             0
3500          ,             0
3514          ,             0
3528          ,             0
3542          ,             0
3556          ,             0
3570          ,             0
3584          ,             0
3598          ,             0
3612          ,             0
3626          ,             0
3640          ,             0
3654          ,             0
3668          ,             0
3682          ,             0
3696          ,             0
3710          ,             0
3724          ,             0
3738          ,             0
3752          ,             0
3766          ,             0
3780          ,             0
3794          ,             0
3808          ,             0
3822          ,             0
3836          ,             0
3850          ,             0
3864          ,             0
3878          ,             0
3892          ,             0
3906          ,             0
3920          ,             0
3934          ,             0
3948          ,             0
3962          ,             0
3976          ,             0
3990          ,             0
4004          ,             0
4018          ,             0
4032          ,             0
4046          ,             0
4060          ,             0
4074          ,             0
4088          ,             0
4095          ,             0